"success","timeout","failed_images","failed_audio","failed_video","trial_type","trial_index","time_elapsed","internal_node_id","rt","stimulus","response","task","correct_response","correct"
"true","false","[]","[]","[]","preload","0","3","0.0-0.0","","","","","",""
"","","","","","html-keyboard-response","1","844","0.0-1.0","840","Welcome to the experiment. Press any key to begin.","enter","","",""
"","","","","","html-keyboard-response","2","1470","0.0-2.0","625","
        <p>In this experiment, a circle will appear in the center 
        of the screen.</p><p>If the circle is <strong>blue</strong>, 
        press the letter F on the keyboard as fast as you can.</p>
        <p>If the circle is <strong>orange</strong>, press the letter J 
        as fast as you can.</p>
        <div style='width: 700px;'>
        <div style='float: left;'><img src='img/blue.png'></img>
        <p class='small'><strong>Press the F key</strong></p></div>
        <div style='float: right;'><img src='img/orange.png'></img>
        <p class='small'><strong>Press the J key</strong></p></div>
        </div>
        <p>Press any key to begin.</p>
      ","enter","","",""
"","","","","","html-keyboard-response","3","2727","0.0-3.0-0.0","null","<div style=""font-size:60px;"">+</div>","null","fixation","",""
"","","","","","image-keyboard-response","4","2955","0.0-3.0-1.0","226","img/blue.png","f","response","f","true"
"","","","","","html-keyboard-response","5","3711","0.0-3.0-0.1","null","<div style=""font-size:60px;"">+</div>","null","fixation","",""
"","","","","","image-keyboard-response","6","3941","0.0-3.0-1.1","228","img/blue.png","f","response","f","true"
"","","","","","html-keyboard-response","7","4446","0.0-3.0-0.2","null","<div style=""font-size:60px;"">+</div>","null","fixation","",""
"","","","","","image-keyboard-response","8","4702","0.0-3.0-1.2","254","img/blue.png","f","response","f","true"
"","","","","","html-keyboard-response","9","4953","0.0-3.0-0.3","null","<div style=""font-size:60px;"">+</div>","null","fixation","",""
"","","","","","image-keyboard-response","10","5228","0.0-3.0-1.3","275","img/blue.png","f","response","f","true"
"","","","","","html-keyboard-response","11","5981","0.0-3.0-0.4","null","<div style=""font-size:60px;"">+</div>","null","fixation","",""
"","","","","","image-keyboard-response","12","6219","0.0-3.0-1.4","237","img/blue.png","f","response","f","true"
"","","","","","html-keyboard-response","13","6471","0.0-3.0-0.5","null","<div style=""font-size:60px;"">+</div>","null","fixation","",""
"","","","","","image-keyboard-response","14","6722","0.0-3.0-1.5","250","img/blue.png","f","response","f","true"
"","","","","","html-keyboard-response","15","7478","0.0-3.0-0.6","null","<div style=""font-size:60px;"">+</div>","null","fixation","",""
"","","","","","image-keyboard-response","16","7716","0.0-3.0-1.6","237","img/blue.png","f","response","f","true"
"","","","","","html-keyboard-response","17","8219","0.0-3.0-0.7","null","<div style=""font-size:60px;"">+</div>","null","fixation","",""
"","","","","","image-keyboard-response","18","8449","0.0-3.0-1.7","229","img/blue.png","f","response","f","true"
"","","","","","html-keyboard-response","19","9205","0.0-3.0-0.8","null","<div style=""font-size:60px;"">+</div>","null","fixation","",""
"","","","","","image-keyboard-response","20","9428","0.0-3.0-1.8","223","img/blue.png","f","response","f","true"
"","","","","","html-keyboard-response","21","9630","0.0-3.0-0.9","null","<div style=""font-size:60px;"">+</div>","null","fixation","",""
"","","","","","image-keyboard-response","22","9919","0.0-3.0-1.9","288","img/blue.png","f","response","f","true"
"","","","","","html-keyboard-response","23","10125","0.0-3.0-0.10","null","<div style=""font-size:60px;"">+</div>","null","fixation","",""
"","","","","","image-keyboard-response","24","10396","0.0-3.0-1.10","269","img/blue.png","f","response","f","true"
"","","","","","html-keyboard-response","25","10748","0.0-3.0-0.11","null","<div style=""font-size:60px;"">+</div>","null","fixation","",""
"","","","","","image-keyboard-response","26","10987","0.0-3.0-1.11","238","img/blue.png","f","response","f","true"
"","","","","","html-keyboard-response","27","11644","0.0-3.0-0.12","null","<div style=""font-size:60px;"">+</div>","null","fixation","",""
"","","","","","image-keyboard-response","28","11887","0.0-3.0-1.12","242","img/blue.png","f","response","f","true"
"","","","","","html-keyboard-response","29","12092","0.0-3.0-0.13","null","<div style=""font-size:60px;"">+</div>","null","fixation","",""
"","","","","","image-keyboard-response","30","12367","0.0-3.0-1.13","274","img/orange.png","f","response","j","false"
"","","","","","html-keyboard-response","31","12573","0.0-3.0-0.14","null","<div style=""font-size:60px;"">+</div>","null","fixation","",""
"","","","","","image-keyboard-response","32","12890","0.0-3.0-1.14","316","img/blue.png","f","response","f","true"
"","","","","","html-keyboard-response","33","13392","0.0-3.0-0.15","null","<div style=""font-size:60px;"">+</div>","null","fixation","",""
"","","","","","image-keyboard-response","34","13642","0.0-3.0-1.15","248","img/blue.png","f","response","f","true"
"","","","","","html-keyboard-response","35","13898","0.0-3.0-0.16","null","<div style=""font-size:60px;"">+</div>","null","fixation","",""
"","","","","","image-keyboard-response","36","14144","0.0-3.0-1.16","245","img/blue.png","f","response","f","true"
"","","","","","html-keyboard-response","37","14400","0.0-3.0-0.17","null","<div style=""font-size:60px;"">+</div>","null","fixation","",""
"","","","","","image-keyboard-response","38","14643","0.0-3.0-1.17","241","img/blue.png","f","response","f","true"
"","","","","","html-keyboard-response","39","15295","0.0-3.0-0.18","null","<div style=""font-size:60px;"">+</div>","null","fixation","",""
"","","","","","image-keyboard-response","40","15533","0.0-3.0-1.18","237","img/blue.png","f","response","f","true"
"","","","","","html-keyboard-response","41","15889","0.0-3.0-0.19","null","<div style=""font-size:60px;"">+</div>","null","fixation","",""
"","","","","","image-keyboard-response","42","16156","0.0-3.0-1.19","266","img/blue.png","f","response","f","true"
"","","","","","html-keyboard-response","43","16360","0.0-3.0-0.20","null","<div style=""font-size:60px;"">+</div>","null","fixation","",""
"","","","","","image-keyboard-response","44","16646","0.0-3.0-1.20","285","img/blue.png","f","response","f","true"
"","","","","","html-keyboard-response","45","17003","0.0-3.0-0.21","null","<div style=""font-size:60px;"">+</div>","null","fixation","",""
"","","","","","image-keyboard-response","46","17255","0.0-3.0-1.21","252","img/blue.png","f","response","f","true"
"","","","","","html-keyboard-response","47","17911","0.0-3.0-0.22","null","<div style=""font-size:60px;"">+</div>","null","fixation","",""
"","","","","","image-keyboard-response","48","18170","0.0-3.0-1.22","258","img/blue.png","f","response","f","true"
"","","","","","html-keyboard-response","49","18426","0.0-3.0-0.23","null","<div style=""font-size:60px;"">+</div>","null","fixation","",""
"","","","","","image-keyboard-response","50","18688","0.0-3.0-1.23","261","img/blue.png","f","response","f","true"
"","","","","","html-keyboard-response","51","19444","0.0-3.0-0.24","null","<div style=""font-size:60px;"">+</div>","null","fixation","",""
"","","","","","image-keyboard-response","52","19682","0.0-3.0-1.24","236","img/blue.png","f","response","f","true"
"","","","","","html-keyboard-response","53","19938","0.0-3.0-0.25","null","<div style=""font-size:60px;"">+</div>","null","fixation","",""
"","","","","","image-keyboard-response","54","20238","0.0-3.0-1.25","299","img/blue.png","f","response","f","true"
"","","","","","html-keyboard-response","55","20741","0.0-3.0-0.26","null","<div style=""font-size:60px;"">+</div>","null","fixation","",""
"","","","","","image-keyboard-response","56","20971","0.0-3.0-1.26","229","img/blue.png","f","response","f","true"
"","","","","","html-keyboard-response","57","21327","0.0-3.0-0.27","null","<div style=""font-size:60px;"">+</div>","null","fixation","",""
"","","","","","image-keyboard-response","58","21579","0.0-3.0-1.27","250","img/blue.png","f","response","f","true"
"","","","","","html-keyboard-response","59","22335","0.0-3.0-0.28","null","<div style=""font-size:60px;"">+</div>","null","fixation","",""
"","","","","","image-keyboard-response","60","22596","0.0-3.0-1.28","261","img/orange.png","f","response","j","false"
"","","","","","html-keyboard-response","61","22948","0.0-3.0-0.29","null","<div style=""font-size:60px;"">+</div>","null","fixation","",""
"","","","","","image-keyboard-response","62","23294","0.0-3.0-1.29","345","img/blue.png","f","response","f","true"
"","","","","","html-keyboard-response","63","23650","0.0-3.0-0.30","null","<div style=""font-size:60px;"">+</div>","null","fixation","",""
"","","","","","image-keyboard-response","64","23906","0.0-3.0-1.30","254","img/blue.png","f","response","f","true"
"","","","","","html-keyboard-response","65","24411","0.0-3.0-0.31","null","<div style=""font-size:60px;"">+</div>","null","fixation","",""
"","","","","","image-keyboard-response","66","24618","0.0-3.0-1.31","205","img/blue.png","f","response","f","true"
"","","","","","html-keyboard-response","67","25374","0.0-3.0-0.32","null","<div style=""font-size:60px;"">+</div>","null","fixation","",""
"","","","","","image-keyboard-response","68","25598","0.0-3.0-1.32","223","img/blue.png","f","response","f","true"
"","","","","","html-keyboard-response","69","25952","0.0-3.0-0.33","null","<div style=""font-size:60px;"">+</div>","null","fixation","",""
"","","","","","image-keyboard-response","70","26226","0.0-3.0-1.33","273","img/blue.png","f","response","f","true"
"","","","","","html-keyboard-response","71","26729","0.0-3.0-0.34","null","<div style=""font-size:60px;"">+</div>","null","fixation","",""
"","","","","","image-keyboard-response","72","26991","0.0-3.0-1.34","261","img/blue.png","f","response","f","true"
"","","","","","html-keyboard-response","73","27745","0.0-3.0-0.35","null","<div style=""font-size:60px;"">+</div>","null","fixation","",""
"","","","","","image-keyboard-response","74","28006","0.0-3.0-1.35","260","img/blue.png","f","response","f","true"
"","","","","","html-keyboard-response","75","28662","0.0-3.0-0.36","null","<div style=""font-size:60px;"">+</div>","null","fixation","",""
"","","","","","image-keyboard-response","76","28925","0.0-3.0-1.36","261","img/blue.png","f","response","f","true"
"","","","","","html-keyboard-response","77","29128","0.0-3.0-0.37","null","<div style=""font-size:60px;"">+</div>","null","fixation","",""
"","","","","","image-keyboard-response","78","29475","0.0-3.0-1.37","345","img/blue.png","f","response","f","true"
"","","","","","html-keyboard-response","79","30231","0.0-3.0-0.38","null","<div style=""font-size:60px;"">+</div>","null","fixation","",""
"","","","","","image-keyboard-response","80","30484","0.0-3.0-1.38","251","img/blue.png","f","response","f","true"
"","","","","","html-keyboard-response","81","30841","0.0-3.0-0.39","null","<div style=""font-size:60px;"">+</div>","null","fixation","",""
"","","","","","image-keyboard-response","82","31137","0.0-3.0-1.39","294","img/blue.png","f","response","f","true"
"","","","","","html-keyboard-response","83","31642","0.0-3.0-0.40","null","<div style=""font-size:60px;"">+</div>","null","fixation","",""
"","","","","","image-keyboard-response","84","31904","0.0-3.0-1.40","261","img/blue.png","f","response","f","true"
"","","","","","html-keyboard-response","85","32161","0.0-3.0-0.41","null","<div style=""font-size:60px;"">+</div>","null","fixation","",""
"","","","","","image-keyboard-response","86","32488","0.0-3.0-1.41","326","img/blue.png","f","response","f","true"
"","","","","","html-keyboard-response","87","32695","0.0-3.0-0.42","null","<div style=""font-size:60px;"">+</div>","null","fixation","",""
"","","","","","image-keyboard-response","88","32989","0.0-3.0-1.42","293","img/blue.png","f","response","f","true"
"","","","","","html-keyboard-response","89","33244","0.0-3.0-0.43","null","<div style=""font-size:60px;"">+</div>","null","fixation","",""
"","","","","","image-keyboard-response","90","33556","0.0-3.0-1.43","310","img/blue.png","f","response","f","true"
"","","","","","html-keyboard-response","91","33761","0.0-3.0-0.44","null","<div style=""font-size:60px;"">+</div>","null","fixation","",""
"","","","","","image-keyboard-response","92","34019","0.0-3.0-1.44","256","img/blue.png","f","response","f","true"
"","","","","","html-keyboard-response","93","34522","0.0-3.0-0.45","null","<div style=""font-size:60px;"">+</div>","null","fixation","",""
"","","","","","image-keyboard-response","94","34804","0.0-3.0-1.45","281","img/blue.png","f","response","f","true"
"","","","","","html-keyboard-response","95","35007","0.0-3.0-0.46","null","<div style=""font-size:60px;"">+</div>","null","fixation","",""
"","","","","","image-keyboard-response","96","35288","0.0-3.0-1.46","280","img/blue.png","f","response","f","true"
"","","","","","html-keyboard-response","97","35494","0.0-3.0-0.47","null","<div style=""font-size:60px;"">+</div>","null","fixation","",""
"","","","","","image-keyboard-response","98","35773","0.0-3.0-1.47","278","img/blue.png","f","response","f","true"
"","","","","","html-keyboard-response","99","36028","0.0-3.0-0.48","null","<div style=""font-size:60px;"">+</div>","null","fixation","",""
"","","","","","image-keyboard-response","100","36368","0.0-3.0-1.48","338","img/blue.png","f","response","f","true"
"","","","","","html-keyboard-response","101","36873","0.0-3.0-0.49","null","<div style=""font-size:60px;"">+</div>","null","fixation","",""
"","","","","","image-keyboard-response","102","37107","0.0-3.0-1.49","233","img/blue.png","f","response","f","true"
"","","","","","html-keyboard-response","103","37308","0.0-3.0-0.50","null","<div style=""font-size:60px;"">+</div>","null","fixation","",""
"","","","","","image-keyboard-response","104","37617","0.0-3.0-1.50","307","img/blue.png","f","response","f","true"
"","","","","","html-keyboard-response","105","38122","0.0-3.0-0.51","null","<div style=""font-size:60px;"">+</div>","null","fixation","",""
"","","","","","image-keyboard-response","106","38441","0.0-3.0-1.51","318","img/blue.png","f","response","f","true"
"","","","","","html-keyboard-response","107","38645","0.0-3.0-0.52","null","<div style=""font-size:60px;"">+</div>","null","fixation","",""
"","","","","","image-keyboard-response","108","38977","0.0-3.0-1.52","330","img/blue.png","f","response","f","true"
"","","","","","html-keyboard-response","109","39183","0.0-3.0-0.53","null","<div style=""font-size:60px;"">+</div>","null","fixation","",""
"","","","","","image-keyboard-response","110","39528","0.0-3.0-1.53","344","img/blue.png","f","response","f","true"
"","","","","","html-keyboard-response","111","39734","0.0-3.0-0.54","null","<div style=""font-size:60px;"">+</div>","null","fixation","",""
"","","","","","image-keyboard-response","112","40019","0.0-3.0-1.54","283","img/blue.png","f","response","f","true"
"","","","","","html-keyboard-response","113","40524","0.0-3.0-0.55","null","<div style=""font-size:60px;"">+</div>","null","fixation","",""
"","","","","","image-keyboard-response","114","40922","0.0-3.0-1.55","397","img/orange.png","j","response","j","true"
"","","","","","html-keyboard-response","115","41427","0.0-3.0-0.56","null","<div style=""font-size:60px;"">+</div>","null","fixation","",""
"","","","","","image-keyboard-response","116","41662","0.0-3.0-1.56","233","img/blue.png","f","response","f","true"
"","","","","","html-keyboard-response","117","41916","0.0-3.0-0.57","null","<div style=""font-size:60px;"">+</div>","null","fixation","",""
"","","","","","image-keyboard-response","118","42193","0.0-3.0-1.57","276","img/blue.png","f","response","f","true"
"","","","","","html-keyboard-response","119","42549","0.0-3.0-0.58","null","<div style=""font-size:60px;"">+</div>","null","fixation","",""
"","","","","","image-keyboard-response","120","42789","0.0-3.0-1.58","238","img/blue.png","f","response","f","true"
"","","","","","html-keyboard-response","121","42995","0.0-3.0-0.59","null","<div style=""font-size:60px;"">+</div>","null","fixation","",""
"","","","","","image-keyboard-response","122","43356","0.0-3.0-1.59","359","img/blue.png","f","response","f","true"
"","","","","","html-keyboard-response","123","43612","0.0-3.0-0.60","null","<div style=""font-size:60px;"">+</div>","null","fixation","",""
"","","","","","image-keyboard-response","124","43906","0.0-3.0-1.60","293","img/blue.png","f","response","f","true"
"","","","","","html-keyboard-response","125","44409","0.0-3.0-0.61","null","<div style=""font-size:60px;"">+</div>","null","fixation","",""
"","","","","","image-keyboard-response","126","44674","0.0-3.0-1.61","263","img/blue.png","f","response","f","true"
"","","","","","html-keyboard-response","127","44879","0.0-3.0-0.62","null","<div style=""font-size:60px;"">+</div>","null","fixation","",""
"","","","","","image-keyboard-response","128","45240","0.0-3.0-1.62","360","img/blue.png","f","response","f","true"
"","","","","","html-keyboard-response","129","45596","0.0-3.0-0.63","null","<div style=""font-size:60px;"">+</div>","null","fixation","",""
"","","","","","image-keyboard-response","130","45875","0.0-3.0-1.63","277","img/blue.png","f","response","f","true"
"","","","","","html-keyboard-response","131","46079","0.0-3.0-0.64","null","<div style=""font-size:60px;"">+</div>","null","fixation","",""
"","","","","","image-keyboard-response","132","46367","0.0-3.0-1.64","287","img/blue.png","f","response","f","true"
"","","","","","html-keyboard-response","133","46574","0.0-3.0-0.65","null","<div style=""font-size:60px;"">+</div>","null","fixation","",""
"","","","","","image-keyboard-response","134","46972","0.0-3.0-1.65","397","img/blue.png","f","response","f","true"
"","","","","","html-keyboard-response","135","47227","0.0-3.0-0.66","null","<div style=""font-size:60px;"">+</div>","null","fixation","",""
"","","","","","image-keyboard-response","136","47560","0.0-3.0-1.66","332","img/blue.png","f","response","f","true"
"","","","","","html-keyboard-response","137","48215","0.0-3.0-0.67","null","<div style=""font-size:60px;"">+</div>","null","fixation","",""
"","","","","","image-keyboard-response","138","48498","0.0-3.0-1.67","283","img/blue.png","f","response","f","true"
"","","","","","html-keyboard-response","139","49002","0.0-3.0-0.68","null","<div style=""font-size:60px;"">+</div>","null","fixation","",""
"","","","","","image-keyboard-response","140","49254","0.0-3.0-1.68","251","img/blue.png","f","response","f","true"
"","","","","","html-keyboard-response","141","49610","0.0-3.0-0.69","null","<div style=""font-size:60px;"">+</div>","null","fixation","",""
"","","","","","image-keyboard-response","142","49874","0.0-3.0-1.69","263","img/blue.png","f","response","f","true"
"","","","","","html-keyboard-response","143","50531","0.0-3.0-0.70","null","<div style=""font-size:60px;"">+</div>","null","fixation","",""
"","","","","","image-keyboard-response","144","50781","0.0-3.0-1.70","248","img/blue.png","f","response","f","true"
"","","","","","html-keyboard-response","145","51286","0.0-3.0-0.71","null","<div style=""font-size:60px;"">+</div>","null","fixation","",""
"","","","","","image-keyboard-response","146","51560","0.0-3.0-1.71","273","img/blue.png","f","response","f","true"
"","","","","","html-keyboard-response","147","51767","0.0-3.0-0.72","null","<div style=""font-size:60px;"">+</div>","null","fixation","",""
"","","","","","image-keyboard-response","148","52172","0.0-3.0-1.72","403","img/blue.png","f","response","f","true"
"","","","","","html-keyboard-response","149","52376","0.0-3.0-0.73","null","<div style=""font-size:60px;"">+</div>","null","fixation","",""
"","","","","","image-keyboard-response","150","52682","0.0-3.0-1.73","305","img/blue.png","f","response","f","true"
"","","","","","html-keyboard-response","151","52889","0.0-3.0-0.74","null","<div style=""font-size:60px;"">+</div>","null","fixation","",""
"","","","","","image-keyboard-response","152","53465","0.0-3.0-1.74","575","img/blue.png","f","response","f","true"
"","","","","","html-keyboard-response","153","54116","0.0-3.0-0.75","null","<div style=""font-size:60px;"">+</div>","null","fixation","",""
"","","","","","image-keyboard-response","154","54384","0.0-3.0-1.75","267","img/blue.png","f","response","f","true"
"","","","","","html-keyboard-response","155","54589","0.0-3.0-0.76","null","<div style=""font-size:60px;"">+</div>","null","fixation","",""
"","","","","","image-keyboard-response","156","54871","0.0-3.0-1.76","280","img/blue.png","f","response","f","true"
"","","","","","html-keyboard-response","157","55078","0.0-3.0-0.77","null","<div style=""font-size:60px;"">+</div>","null","fixation","",""
"","","","","","image-keyboard-response","158","55587","0.0-3.0-1.77","508","img/orange.png","j","response","j","true"
"","","","","","html-keyboard-response","159","56243","0.0-3.0-0.78","null","<div style=""font-size:60px;"">+</div>","null","fixation","",""
"","","","","","image-keyboard-response","160","56490","0.0-3.0-1.78","246","img/blue.png","f","response","f","true"
"","","","","","html-keyboard-response","161","56695","0.0-3.0-0.79","null","<div style=""font-size:60px;"">+</div>","null","fixation","",""
"","","","","","image-keyboard-response","162","56976","0.0-3.0-1.79","279","img/blue.png","f","response","f","true"
"","","","","","html-keyboard-response","163","57229","0.0-3.0-0.80","null","<div style=""font-size:60px;"">+</div>","null","fixation","",""
"","","","","","image-keyboard-response","164","57490","0.0-3.0-1.80","260","img/blue.png","f","response","f","true"
"","","","","","html-keyboard-response","165","57991","0.0-3.0-0.81","null","<div style=""font-size:60px;"">+</div>","null","fixation","",""
"","","","","","image-keyboard-response","166","58337","0.0-3.0-1.81","345","img/blue.png","f","response","f","true"
"","","","","","html-keyboard-response","167","58842","0.0-3.0-0.82","null","<div style=""font-size:60px;"">+</div>","null","fixation","",""
"","","","","","image-keyboard-response","168","59111","0.0-3.0-1.82","268","img/blue.png","f","response","f","true"
"","","","","","html-keyboard-response","169","59868","0.0-3.0-0.83","null","<div style=""font-size:60px;"">+</div>","null","fixation","",""
"","","","","","image-keyboard-response","170","60078","0.0-3.0-1.83","209","img/blue.png","f","response","f","true"
"","","","","","html-keyboard-response","171","60334","0.0-3.0-0.84","null","<div style=""font-size:60px;"">+</div>","null","fixation","",""
"","","","","","image-keyboard-response","172","60641","0.0-3.0-1.84","306","img/blue.png","f","response","f","true"
"","","","","","html-keyboard-response","173","61298","0.0-3.0-0.85","null","<div style=""font-size:60px;"">+</div>","null","fixation","",""
"","","","","","image-keyboard-response","174","61537","0.0-3.0-1.85","238","img/blue.png","f","response","f","true"
"","","","","","html-keyboard-response","175","62193","0.0-3.0-0.86","null","<div style=""font-size:60px;"">+</div>","null","fixation","",""
"","","","","","image-keyboard-response","176","62442","0.0-3.0-1.86","247","img/blue.png","f","response","f","true"
"","","","","","html-keyboard-response","177","62946","0.0-3.0-0.87","null","<div style=""font-size:60px;"">+</div>","null","fixation","",""
"","","","","","image-keyboard-response","178","63188","0.0-3.0-1.87","241","img/blue.png","f","response","f","true"
"","","","","","html-keyboard-response","179","63940","0.0-3.0-0.88","null","<div style=""font-size:60px;"">+</div>","null","fixation","",""
"","","","","","image-keyboard-response","180","63956","0.0-3.0-1.88","15","img/blue.png","f","response","f","true"
"","","","","","html-keyboard-response","181","64712","0.0-3.0-0.89","null","<div style=""font-size:60px;"">+</div>","null","fixation","",""
"","","","","","image-keyboard-response","182","65006","0.0-3.0-1.89","294","img/blue.png","f","response","f","true"
"","","","","","html-keyboard-response","183","65661","0.0-3.0-0.90","null","<div style=""font-size:60px;"">+</div>","null","fixation","",""
"","","","","","image-keyboard-response","184","65923","0.0-3.0-1.90","260","img/blue.png","f","response","f","true"
"","","","","","html-keyboard-response","185","66580","0.0-3.0-0.91","null","<div style=""font-size:60px;"">+</div>","null","fixation","",""
"","","","","","image-keyboard-response","186","66829","0.0-3.0-1.91","247","img/blue.png","f","response","f","true"
"","","","","","html-keyboard-response","187","67480","0.0-3.0-0.92","null","<div style=""font-size:60px;"">+</div>","null","fixation","",""
"","","","","","image-keyboard-response","188","67723","0.0-3.0-1.92","242","img/blue.png","f","response","f","true"
"","","","","","html-keyboard-response","189","68376","0.0-3.0-0.93","null","<div style=""font-size:60px;"">+</div>","null","fixation","",""
"","","","","","image-keyboard-response","190","68622","0.0-3.0-1.93","246","img/blue.png","f","response","f","true"
"","","","","","html-keyboard-response","191","69124","0.0-3.0-0.94","null","<div style=""font-size:60px;"">+</div>","null","fixation","",""
"","","","","","image-keyboard-response","192","69380","0.0-3.0-1.94","255","img/blue.png","f","response","f","true"
"","","","","","html-keyboard-response","193","69736","0.0-3.0-0.95","null","<div style=""font-size:60px;"">+</div>","null","fixation","",""
"","","","","","image-keyboard-response","194","70021","0.0-3.0-1.95","284","img/blue.png","f","response","f","true"
"","","","","","html-keyboard-response","195","70778","0.0-3.0-0.96","null","<div style=""font-size:60px;"">+</div>","null","fixation","",""
"","","","","","image-keyboard-response","196","71022","0.0-3.0-1.96","243","img/orange.png","f","response","j","false"
"","","","","","html-keyboard-response","197","71778","0.0-3.0-0.97","null","<div style=""font-size:60px;"">+</div>","null","fixation","",""
"","","","","","image-keyboard-response","198","71995","0.0-3.0-1.97","216","img/blue.png","f","response","f","true"
"","","","","","html-keyboard-response","199","72251","0.0-3.0-0.98","null","<div style=""font-size:60px;"">+</div>","null","fixation","",""
"","","","","","image-keyboard-response","200","72620","0.0-3.0-1.98","368","img/blue.png","f","response","f","true"
"","","","","","html-keyboard-response","201","73123","0.0-3.0-0.99","null","<div style=""font-size:60px;"">+</div>","null","fixation","",""
"","","","","","image-keyboard-response","202","73375","0.0-3.0-1.99","250","img/blue.png","f","response","f","true"
"","","","","","html-keyboard-response","203","74277","0.0-4.0","900","<p>You responded correctly on 97% of the trials.</p>
          <p>Your average response time was 277ms.</p>
          <p>Press any key to complete the experiment. Thank you!</p>","enter","","",""