"success","timeout","failed_images","failed_audio","failed_video","trial_type","trial_index","time_elapsed","internal_node_id","rt","stimulus","response","task","correct_response","correct"
"true","false","[]","[]","[]","preload","0","3","0.0-0.0","","","","","",""
"","","","","","html-keyboard-response","1","3014","0.0-1.0","3011","Welcome to the experiment. Press any key to begin.","enter","","",""
"","","","","","html-keyboard-response","2","3780","0.0-2.0","765","
        <p>In this experiment, a circle will appear in the center 
        of the screen.</p><p>If the circle is <strong>blue</strong>, 
        press the letter F on the keyboard as fast as you can.</p>
        <p>If the circle is <strong>orange</strong>, press the letter J 
        as fast as you can.</p>
        <div style='width: 700px;'>
        <div style='float: left;'><img src='img/blue.png'></img>
        <p class='small'><strong>Press the F key</strong></p></div>
        <div style='float: right;'><img src='img/orange.png'></img>
        <p class='small'><strong>Press the J key</strong></p></div>
        </div>
        <p>Press any key to begin.</p>
      ","enter","","",""
"","","","","","html-keyboard-response","3","6551","0.0-3.0-0.0","null","<div style=""font-size:60px;"">+</div>","null","fixation","",""
"","","","","","image-keyboard-response","4","6954","0.0-3.0-1.0","401","img/orange.png","j","response","j","true"
"","","","","","html-keyboard-response","5","8965","0.0-3.0-0.1","null","<div style=""font-size:60px;"">+</div>","null","fixation","",""
"","","","","","image-keyboard-response","6","9345","0.0-3.0-1.1","378","img/blue.png","f","response","f","true"
"","","","","","html-keyboard-response","7","10853","0.0-3.0-0.2","null","<div style=""font-size:60px;"">+</div>","null","fixation","",""
"","","","","","image-keyboard-response","8","11201","0.0-3.0-1.2","346","img/orange.png","j","response","j","true"
"","","","","","html-keyboard-response","9","11460","0.0-3.0-0.3","null","<div style=""font-size:60px;"">+</div>","null","fixation","",""
"","","","","","image-keyboard-response","10","11866","0.0-3.0-1.3","404","img/blue.png","f","response","f","true"
"","","","","","html-keyboard-response","11","12624","0.0-3.0-0.4","null","<div style=""font-size:60px;"">+</div>","null","fixation","",""
"","","","","","image-keyboard-response","12","12971","0.0-3.0-1.4","345","img/blue.png","f","response","f","true"
"","","","","","html-keyboard-response","13","14727","0.0-3.0-0.5","null","<div style=""font-size:60px;"">+</div>","null","fixation","",""
"","","","","","image-keyboard-response","14","15100","0.0-3.0-1.5","372","img/orange.png","j","response","j","true"
"","","","","","html-keyboard-response","15","16861","0.0-3.0-0.6","null","<div style=""font-size:60px;"">+</div>","null","fixation","",""
"","","","","","image-keyboard-response","16","17567","0.0-3.0-1.6","705","img/orange.png","j","response","j","true"
"","","","","","html-keyboard-response","17","18829","0.0-3.0-0.7","null","<div style=""font-size:60px;"">+</div>","null","fixation","",""
"","","","","","image-keyboard-response","18","19114","0.0-3.0-1.7","284","img/blue.png","f","response","f","true"
"","","","","","html-keyboard-response","19","19871","0.0-3.0-0.8","null","<div style=""font-size:60px;"">+</div>","null","fixation","",""
"","","","","","image-keyboard-response","20","20284","0.0-3.0-1.8","412","img/orange.png","j","response","j","true"
"","","","","","html-keyboard-response","21","20787","0.0-3.0-0.9","null","<div style=""font-size:60px;"">+</div>","null","fixation","",""
"","","","","","image-keyboard-response","22","21200","0.0-3.0-1.9","412","img/blue.png","f","response","f","true"
"","","","","","html-keyboard-response","23","22156","0.0-4.0","956","<p>You responded correctly on 100% of the trials.</p>
          <p>Your average response time was 406ms.</p>
          <p>Press any key to complete the experiment. Thank you!</p>","meta","","",""