"success","timeout","failed_images","failed_audio","failed_video","trial_type","trial_index","time_elapsed","internal_node_id","rt","stimulus","response","task","correct_response","correct"
"true","false","[]","[]","[]","preload","0","3","0.0-0.0","","","","","",""
"","","","","","html-keyboard-response","1","475","0.0-1.0","472","Welcome to the experiment. Press any key to begin.","enter","","",""
"","","","","","html-keyboard-response","2","1198","0.0-2.0","722","
        <p>In this experiment, a circle will appear in the center 
        of the screen.</p><p>If the circle is <strong>blue</strong>, 
        press the letter F on the keyboard as fast as you can.</p>
        <p>If the circle is <strong>orange</strong>, press the letter J 
        as fast as you can.</p>
        <div style='width: 700px;'>
        <div style='float: left;'><img src='img/blue.png'></img>
        <p class='small'><strong>Press the F key</strong></p></div>
        <div style='float: right;'><img src='img/orange.png'></img>
        <p class='small'><strong>Press the J key</strong></p></div>
        </div>
        <p>Press any key to begin.</p>
      ","enter","","",""
"","","","","","html-keyboard-response","3","4214","0.0-3.0-0.0","null","<div style=""font-size:60px;"">+</div>","null","fixation","",""
"","","","","","image-keyboard-response","4","4592","0.0-3.0-1.0","373","img/blue.png","f","response","f","true"
"","","","","","html-keyboard-response","5","6597","0.0-3.0-0.1","null","<div style=""font-size:60px;"">+</div>","null","fixation","",""
"","","","","","image-keyboard-response","6","6941","0.0-3.0-1.1","342","img/orange.png","j","response","j","true"
"","","","","","html-keyboard-response","7","8451","0.0-3.0-0.2","null","<div style=""font-size:60px;"">+</div>","null","fixation","",""
"","","","","","image-keyboard-response","8","8820","0.0-3.0-1.2","368","img/orange.png","j","response","j","true"
"","","","","","html-keyboard-response","9","9322","0.0-3.0-0.3","null","<div style=""font-size:60px;"">+</div>","null","fixation","",""
"","","","","","image-keyboard-response","10","9723","0.0-3.0-1.3","400","img/blue.png","f","response","f","true"
"","","","","","html-keyboard-response","11","11482","0.0-3.0-0.4","null","<div style=""font-size:60px;"">+</div>","null","fixation","",""
"","","","","","image-keyboard-response","12","11789","0.0-3.0-1.4","306","img/blue.png","f","response","f","true"
"","","","","","html-keyboard-response","13","12044","0.0-3.0-0.5","null","<div style=""font-size:60px;"">+</div>","null","fixation","",""
"","","","","","image-keyboard-response","14","12458","0.0-3.0-1.5","413","img/orange.png","j","response","j","true"
"","","","","","html-keyboard-response","15","14470","0.0-3.0-0.6","null","<div style=""font-size:60px;"">+</div>","null","fixation","",""
"","","","","","image-keyboard-response","16","14897","0.0-3.0-1.6","426","img/orange.png","j","response","j","true"
"","","","","","html-keyboard-response","17","16654","0.0-3.0-0.7","null","<div style=""font-size:60px;"">+</div>","null","fixation","",""
"","","","","","image-keyboard-response","18","17029","0.0-3.0-1.7","374","img/blue.png","f","response","f","true"
"","","","","","html-keyboard-response","19","19038","0.0-3.0-0.8","null","<div style=""font-size:60px;"">+</div>","null","fixation","",""
"","","","","","image-keyboard-response","20","19430","0.0-3.0-1.8","390","img/orange.png","j","response","j","true"
"","","","","","html-keyboard-response","21","20938","0.0-3.0-0.9","null","<div style=""font-size:60px;"">+</div>","null","fixation","",""
"","","","","","image-keyboard-response","22","21539","0.0-3.0-1.9","600","img/blue.png","f","response","f","true"
"","","","","","html-keyboard-response","23","22576","0.0-4.0","1036","<p>You responded correctly on 100% of the trials.</p>
          <p>Your average response time was 399ms.</p>
          <p>Press any key to complete the experiment. Thank you!</p>","meta","","",""