"success","timeout","failed_images","failed_audio","failed_video","trial_type","trial_index","time_elapsed","internal_node_id","rt","stimulus","response","task","correct_response","correct"
"true","false","[]","[]","[]","preload","0","4","0.0-0.0","","","","","",""
"","","","","","html-keyboard-response","1","1248","0.0-1.0","1243","Welcome to the experiment. Press any key to begin.","a","","",""
"","","","","","html-keyboard-response","2","2042","0.0-2.0","793","
        <p>In this experiment, a circle will appear in the center 
        of the screen.</p><p>If the circle is <strong>blue</strong>, 
        press the letter F on the keyboard as fast as you can.</p>
        <p>If the circle is <strong>orange</strong>, press the letter J 
        as fast as you can.</p>
        <div style='width: 700px;'>
        <div style='float: left;'><img src='img/blue.png'></img>
        <p class='small'><strong>Press the F key</strong></p></div>
        <div style='float: right;'><img src='img/orange.png'></img>
        <p class='small'><strong>Press the J key</strong></p></div>
        </div>
        <p>Press any key to begin.</p>
      ","f","","",""
"","","","","","html-keyboard-response","3","5815","0.0-3.0-0.0","null","<div style=""font-size:60px;"">+</div>","null","fixation","",""
"","","","","","image-keyboard-response","4","6400","0.0-3.0-1.0","581","img/orange.png","j","response","j","true"
"","","","","","html-keyboard-response","5","8159","0.0-3.0-0.1","null","<div style=""font-size:60px;"">+</div>","null","fixation","",""
"","","","","","image-keyboard-response","6","8473","0.0-3.0-1.1","312","img/blue.png","f","response","f","true"
"","","","","","html-keyboard-response","7","8733","0.0-3.0-0.2","null","<div style=""font-size:60px;"">+</div>","null","fixation","",""
"","","","","","image-keyboard-response","8","9263","0.0-3.0-1.2","530","img/blue.png","f","response","f","true"
"","","","","","html-keyboard-response","9","10019","0.0-3.0-0.3","null","<div style=""font-size:60px;"">+</div>","null","fixation","",""
"","","","","","image-keyboard-response","10","10404","0.0-3.0-1.3","383","img/orange.png","j","response","j","true"
"","","","","","html-keyboard-response","11","11163","0.0-3.0-0.4","null","<div style=""font-size:60px;"">+</div>","null","fixation","",""
"","","","","","image-keyboard-response","12","11599","0.0-3.0-1.4","435","img/orange.png","j","response","j","true"
"","","","","","html-keyboard-response","13","13358","0.0-3.0-0.5","null","<div style=""font-size:60px;"">+</div>","null","fixation","",""
"","","","","","image-keyboard-response","14","13660","0.0-3.0-1.5","300","img/blue.png","f","response","f","true"
"","","","","","html-keyboard-response","15","15669","0.0-3.0-0.6","null","<div style=""font-size:60px;"">+</div>","null","fixation","",""
"","","","","","image-keyboard-response","16","16230","0.0-3.0-1.6","560","img/blue.png","f","response","f","true"
"","","","","","html-keyboard-response","17","16990","0.0-3.0-0.7","null","<div style=""font-size:60px;"">+</div>","null","fixation","",""
"","","","","","image-keyboard-response","18","17443","0.0-3.0-1.7","451","img/orange.png","j","response","j","true"
"","","","","","html-keyboard-response","19","18950","0.0-3.0-0.8","null","<div style=""font-size:60px;"">+</div>","null","fixation","",""
"","","","","","image-keyboard-response","20","19611","0.0-3.0-1.8","659","img/orange.png","f","response","j","false"
"","","","","","html-keyboard-response","21","21374","0.0-3.0-0.9","null","<div style=""font-size:60px;"">+</div>","null","fixation","",""
"","","","","","image-keyboard-response","22","21712","0.0-3.0-1.9","338","img/blue.png","f","response","f","true"
"","","","","","html-keyboard-response","23","24315","0.0-4.0","2601","<p>You responded correctly on 90% of the trials.</p>
          <p>Your average response time was 432ms.</p>
          <p>Press any key to complete the experiment. Thank you!</p>","meta","","",""