"success","timeout","failed_images","failed_audio","failed_video","trial_type","trial_index","time_elapsed","internal_node_id","rt","stimulus","response","task","correct_response","correct"
"true","false","[]","[]","[]","preload","0","8","0.0-0.0","","","","","",""
"","","","","","html-keyboard-response","1","468","0.0-1.0","460","Welcome to the experiment. Press any key to begin.","enter","","",""
"","","","","","html-keyboard-response","2","1470","0.0-2.0","1001","
        <p>In this experiment, a circle will appear in the center 
        of the screen.</p><p>If the circle is <strong>blue</strong>, 
        press the letter F on the keyboard as fast as you can.</p>
        <p>If the circle is <strong>orange</strong>, press the letter J 
        as fast as you can.</p>
        <div style='width: 700px;'>
        <div style='float: left;'><img src='img/blue.png'></img>
        <p class='small'><strong>Press the F key</strong></p></div>
        <div style='float: right;'><img src='img/orange.png'></img>
        <p class='small'><strong>Press the J key</strong></p></div>
        </div>
        <p>Press any key to begin.</p>
      ","enter","","",""
"","","","","","html-keyboard-response","3","4492","0.0-3.0-0.0","null","<div style=""font-size:60px;"">+</div>","null","fixation","",""
"","","","","","image-keyboard-response","4","4868","0.0-3.0-1.0","373","img/orange.png","j","response","j","true"
"","","","","","html-keyboard-response","5","6627","0.0-3.0-0.1","null","<div style=""font-size:60px;"">+</div>","null","fixation","",""
"","","","","","image-keyboard-response","6","7027","0.0-3.0-1.1","399","img/blue.png","f","response","f","true"
"","","","","","html-keyboard-response","7","7283","0.0-3.0-0.2","null","<div style=""font-size:60px;"">+</div>","null","fixation","",""
"","","","","","image-keyboard-response","8","7702","0.0-3.0-1.2","418","img/orange.png","j","response","j","true"
"","","","","","html-keyboard-response","9","7963","0.0-3.0-0.3","null","<div style=""font-size:60px;"">+</div>","null","fixation","",""
"","","","","","image-keyboard-response","10","8329","0.0-3.0-1.3","366","img/blue.png","f","response","f","true"
"","","","","","html-keyboard-response","11","9089","0.0-3.0-0.4","null","<div style=""font-size:60px;"">+</div>","null","fixation","",""
"","","","","","image-keyboard-response","12","9475","0.0-3.0-1.4","385","img/blue.png","j","response","f","false"
"","","","","","html-keyboard-response","13","11483","0.0-3.0-0.5","null","<div style=""font-size:60px;"">+</div>","null","fixation","",""
"","","","","","image-keyboard-response","14","11956","0.0-3.0-1.5","472","img/orange.png","j","response","j","true"
"","","","","","html-keyboard-response","15","12467","0.0-3.0-0.6","null","<div style=""font-size:60px;"">+</div>","null","fixation","",""
"","","","","","image-keyboard-response","16","12918","0.0-3.0-1.6","449","img/orange.png","j","response","j","true"
"","","","","","html-keyboard-response","17","14428","0.0-3.0-0.7","null","<div style=""font-size:60px;"">+</div>","null","fixation","",""
"","","","","","image-keyboard-response","18","14770","0.0-3.0-1.7","341","img/blue.png","f","response","f","true"
"","","","","","html-keyboard-response","19","15527","0.0-3.0-0.8","null","<div style=""font-size:60px;"">+</div>","null","fixation","",""
"","","","","","image-keyboard-response","20","15877","0.0-3.0-1.8","349","img/blue.png","f","response","f","true"
"","","","","","html-keyboard-response","21","16635","0.0-3.0-0.9","null","<div style=""font-size:60px;"">+</div>","null","fixation","",""
"","","","","","image-keyboard-response","22","17019","0.0-3.0-1.9","383","img/orange.png","j","response","j","true"
"","","","","","html-keyboard-response","23","19424","0.0-4.0","2404","<p>You responded correctly on 90% of the trials.</p>
          <p>Your average response time was 394ms.</p>
          <p>Press any key to complete the experiment. Thank you!</p>","enter","","",""