"success","timeout","failed_images","failed_audio","failed_video","trial_type","trial_index","time_elapsed","internal_node_id","rt","stimulus","response","task","correct_response","correct"
"true","false","[]","[]","[]","preload","0","11","0.0-0.0","","","","","",""
"","","","","","html-keyboard-response","1","994","0.0-1.0","983","Welcome to the experiment. Press any key to begin."," ","","",""
"","","","","","html-keyboard-response","2","1731","0.0-2.0","735","
        <p>In this experiment, a circle will appear in the center 
        of the screen.</p><p>If the circle is <strong>blue</strong>, 
        press the letter F on the keyboard as fast as you can.</p>
        <p>If the circle is <strong>orange</strong>, press the letter J 
        as fast as you can.</p>
        <div style='width: 700px;'>
        <div style='float: left;'><img src='img/blue.png'></img>
        <p class='small'><strong>Press the F key</strong></p></div>
        <div style='float: right;'><img src='img/orange.png'></img>
        <p class='small'><strong>Press the J key</strong></p></div>
        </div>
        <p>Press any key to begin.</p>
      "," ","","",""
"","","","","","html-keyboard-response","3","5746","0.0-3.0-0.0","null","<div style=""font-size:60px;"">+</div>","null","fixation","",""
"","","","","","image-keyboard-response","4","6268","0.0-3.0-1.0","515","img/blue.png","f","response","f","true"
"","","","","","html-keyboard-response","5","6525","0.0-3.0-0.1","null","<div style=""font-size:60px;"">+</div>","null","fixation","",""
"","","","","","image-keyboard-response","6","6964","0.0-3.0-1.1","437","img/orange.png","j","response","j","true"
"","","","","","html-keyboard-response","7","8726","0.0-3.0-0.2","null","<div style=""font-size:60px;"">+</div>","null","fixation","",""
"","","","","","image-keyboard-response","8","9170","0.0-3.0-1.2","443","img/blue.png","f","response","f","true"
"","","","","","html-keyboard-response","9","10177","0.0-3.0-0.3","null","<div style=""font-size:60px;"">+</div>","null","fixation","",""
"","","","","","image-keyboard-response","10","10578","0.0-3.0-1.3","400","img/orange.png","j","response","j","true"
"","","","","","html-keyboard-response","11","11082","0.0-3.0-0.4","null","<div style=""font-size:60px;"">+</div>","null","fixation","",""
"","","","","","image-keyboard-response","12","11497","0.0-3.0-1.4","415","img/orange.png","j","response","j","true"
"","","","","","html-keyboard-response","13","13006","0.0-3.0-0.5","null","<div style=""font-size:60px;"">+</div>","null","fixation","",""
"","","","","","image-keyboard-response","14","13501","0.0-3.0-1.5","493","img/blue.png","f","response","f","true"
"","","","","","html-keyboard-response","15","14765","0.0-3.0-0.6","null","<div style=""font-size:60px;"">+</div>","null","fixation","",""
"","","","","","image-keyboard-response","16","15271","0.0-3.0-1.6","505","img/orange.png","j","response","j","true"
"","","","","","html-keyboard-response","17","16534","0.0-3.0-0.7","null","<div style=""font-size:60px;"">+</div>","null","fixation","",""
"","","","","","image-keyboard-response","18","16900","0.0-3.0-1.7","365","img/blue.png","f","response","f","true"
"","","","","","html-keyboard-response","19","18662","0.0-3.0-0.8","null","<div style=""font-size:60px;"">+</div>","null","fixation","",""
"","","","","","image-keyboard-response","20","19146","0.0-3.0-1.8","481","img/blue.png","f","response","f","true"
"","","","","","html-keyboard-response","21","20405","0.0-3.0-0.9","null","<div style=""font-size:60px;"">+</div>","null","fixation","",""
"","","","","","image-keyboard-response","22","20904","0.0-3.0-1.9","496","img/orange.png","j","response","j","true"
"","","","","","html-keyboard-response","23","25617","0.0-4.0","4712","<p>You responded correctly on 100% of the trials.</p>
          <p>Your average response time was 455ms.</p>
          <p>Press any key to complete the experiment. Thank you!</p>"," ","","",""