"success","timeout","failed_images","failed_audio","failed_video","trial_type","trial_index","time_elapsed","internal_node_id","rt","stimulus","response","task","correct_response","correct"
"true","false","[]","[]","[]","preload","0","9","0.0-0.0","","","","","",""
"","","","","","html-keyboard-response","1","1080","0.0-1.0","1071","Welcome to the experiment. Press any key to begin.","enter","","",""
"","","","","","html-keyboard-response","2","3081","0.0-2.0","1999","
        <p>In this experiment, a circle will appear in the center 
        of the screen.</p><p>If the circle is <strong>blue</strong>, 
        press the letter F on the keyboard as fast as you can.</p>
        <p>If the circle is <strong>orange</strong>, press the letter J 
        as fast as you can.</p>
        <div style='width: 700px;'>
        <div style='float: left;'><img src='img/blue.png'></img>
        <p class='small'><strong>Press the F key</strong></p></div>
        <div style='float: right;'><img src='img/orange.png'></img>
        <p class='small'><strong>Press the J key</strong></p></div>
        </div>
        <p>Press any key to begin.</p>
      ","enter","","",""
"","","","","","html-keyboard-response","3","7096","0.0-3.0-0.0","null","<div style=""font-size:60px;"">+</div>","null","fixation","",""
"","","","","","image-keyboard-response","4","7445","0.0-3.0-1.0","346","img/orange.png","j","response","j","true"
"","","","","","html-keyboard-response","5","7954","0.0-3.0-0.1","null","<div style=""font-size:60px;"">+</div>","null","fixation","",""
"","","","","","image-keyboard-response","6","8338","0.0-3.0-1.1","382","img/blue.png","f","response","f","true"
"","","","","","html-keyboard-response","7","9594","0.0-3.0-0.2","null","<div style=""font-size:60px;"">+</div>","null","fixation","",""
"","","","","","image-keyboard-response","8","9994","0.0-3.0-1.2","399","img/blue.png","f","response","f","true"
"","","","","","html-keyboard-response","9","11252","0.0-3.0-0.3","null","<div style=""font-size:60px;"">+</div>","null","fixation","",""
"","","","","","image-keyboard-response","10","11576","0.0-3.0-1.3","322","img/orange.png","j","response","j","true"
"","","","","","html-keyboard-response","11","12584","0.0-3.0-0.4","null","<div style=""font-size:60px;"">+</div>","null","fixation","",""
"","","","","","image-keyboard-response","12","12937","0.0-3.0-1.4","351","img/blue.png","f","response","f","true"
"","","","","","html-keyboard-response","13","13196","0.0-3.0-0.5","null","<div style=""font-size:60px;"">+</div>","null","fixation","",""
"","","","","","image-keyboard-response","14","13672","0.0-3.0-1.5","475","img/orange.png","j","response","j","true"
"","","","","","html-keyboard-response","15","15179","0.0-3.0-0.6","null","<div style=""font-size:60px;"">+</div>","null","fixation","",""
"","","","","","image-keyboard-response","16","15510","0.0-3.0-1.6","331","img/orange.png","f","response","j","false"
"","","","","","html-keyboard-response","17","15768","0.0-3.0-0.7","null","<div style=""font-size:60px;"">+</div>","null","fixation","",""
"","","","","","image-keyboard-response","18","16318","0.0-3.0-1.7","548","img/blue.png","f","response","f","true"
"","","","","","html-keyboard-response","19","17074","0.0-3.0-0.8","null","<div style=""font-size:60px;"">+</div>","null","fixation","",""
"","","","","","image-keyboard-response","20","17403","0.0-3.0-1.8","328","img/blue.png","f","response","f","true"
"","","","","","html-keyboard-response","21","18911","0.0-3.0-0.9","null","<div style=""font-size:60px;"">+</div>","null","fixation","",""
"","","","","","image-keyboard-response","22","19328","0.0-3.0-1.9","415","img/orange.png","j","response","j","true"
"","","","","","html-keyboard-response","23","20866","0.0-4.0","1534","<p>You responded correctly on 90% of the trials.</p>
          <p>Your average response time was 396ms.</p>
          <p>Press any key to complete the experiment. Thank you!</p>","enter","","",""