"success","timeout","failed_images","failed_audio","failed_video","trial_type","trial_index","time_elapsed","internal_node_id","rt","stimulus","response","task","correct_response","correct"
"true","false","[]","[]","[]","preload","0","3","0.0-0.0","","","","","",""
"","","","","","html-keyboard-response","1","1122","0.0-1.0","1119","Welcome to the experiment. Press any key to begin.","enter","","",""
"","","","","","html-keyboard-response","2","1799","0.0-2.0","676","
        <p>In this experiment, a circle will appear in the center 
        of the screen.</p><p>If the circle is <strong>blue</strong>, 
        press the letter F on the keyboard as fast as you can.</p>
        <p>If the circle is <strong>orange</strong>, press the letter J 
        as fast as you can.</p>
        <div style='width: 700px;'>
        <div style='float: left;'><img src='img/blue.png'></img>
        <p class='small'><strong>Press the F key</strong></p></div>
        <div style='float: right;'><img src='img/orange.png'></img>
        <p class='small'><strong>Press the J key</strong></p></div>
        </div>
        <p>Press any key to begin.</p>
      ","enter","","",""
"","","","","","html-keyboard-response","3","5062","0.0-3.0-0.0","null","<div style=""font-size:60px;"">+</div>","null","fixation","",""
"","","","","","image-keyboard-response","4","5393","0.0-3.0-1.0","328","img/orange.png","j","response","j","true"
"","","","","","html-keyboard-response","5","6407","0.0-3.0-0.1","null","<div style=""font-size:60px;"">+</div>","null","fixation","",""
"","","","","","image-keyboard-response","6","6753","0.0-3.0-1.1","345","img/blue.png","f","response","f","true"
"","","","","","html-keyboard-response","7","8506","0.0-3.0-0.2","null","<div style=""font-size:60px;"">+</div>","null","fixation","",""
"","","","","","image-keyboard-response","8","8884","0.0-3.0-1.2","377","img/blue.png","f","response","f","true"
"","","","","","html-keyboard-response","9","9140","0.0-3.0-0.3","null","<div style=""font-size:60px;"">+</div>","null","fixation","",""
"","","","","","image-keyboard-response","10","9548","0.0-3.0-1.3","407","img/orange.png","j","response","j","true"
"","","","","","html-keyboard-response","11","10054","0.0-3.0-0.4","null","<div style=""font-size:60px;"">+</div>","null","fixation","",""
"","","","","","image-keyboard-response","12","10505","0.0-3.0-1.4","451","img/orange.png","j","response","j","true"
"","","","","","html-keyboard-response","13","12014","0.0-3.0-0.5","null","<div style=""font-size:60px;"">+</div>","null","fixation","",""
"","","","","","image-keyboard-response","14","12363","0.0-3.0-1.5","347","img/blue.png","f","response","f","true"
"","","","","","html-keyboard-response","15","13867","0.0-3.0-0.6","null","<div style=""font-size:60px;"">+</div>","null","fixation","",""
"","","","","","image-keyboard-response","16","14229","0.0-3.0-1.6","361","img/blue.png","f","response","f","true"
"","","","","","html-keyboard-response","17","15234","0.0-3.0-0.7","null","<div style=""font-size:60px;"">+</div>","null","fixation","",""
"","","","","","image-keyboard-response","18","15634","0.0-3.0-1.7","399","img/orange.png","j","response","j","true"
"","","","","","html-keyboard-response","19","17386","0.0-3.0-0.8","null","<div style=""font-size:60px;"">+</div>","null","fixation","",""
"","","","","","image-keyboard-response","20","17929","0.0-3.0-1.8","541","img/orange.png","j","response","j","true"
"","","","","","html-keyboard-response","21","19438","0.0-3.0-0.9","null","<div style=""font-size:60px;"">+</div>","null","fixation","",""
"","","","","","image-keyboard-response","22","20086","0.0-3.0-1.9","647","img/blue.png","f","response","f","true"
"","","","","","html-keyboard-response","23","21997","0.0-4.0","1910","<p>You responded correctly on 100% of the trials.</p>
          <p>Your average response time was 420ms.</p>
          <p>Press any key to complete the experiment. Thank you!</p>","enter","","",""