"success","timeout","failed_images","failed_audio","failed_video","trial_type","trial_index","time_elapsed","internal_node_id","rt","stimulus","response","task","correct_response","correct"
"true","false","[]","[]","[]","preload","0","4","0.0-0.0","","","","","",""
"","","","","","html-keyboard-response","1","748","0.0-1.0","744","Welcome to the experiment. Press any key to begin.","enter","","",""
"","","","","","html-keyboard-response","2","1546","0.0-2.0","796","
        <p>In this experiment, a circle will appear in the center 
        of the screen.</p><p>If the circle is <strong>blue</strong>, 
        press the letter F on the keyboard as fast as you can.</p>
        <p>If the circle is <strong>orange</strong>, press the letter J 
        as fast as you can.</p>
        <div style='width: 700px;'>
        <div style='float: left;'><img src='img/blue.png'></img>
        <p class='small'><strong>Press the F key</strong></p></div>
        <div style='float: right;'><img src='img/orange.png'></img>
        <p class='small'><strong>Press the J key</strong></p></div>
        </div>
        <p>Press any key to begin.</p>
      ","enter","","",""
"","","","","","html-keyboard-response","3","5565","0.0-3.0-0.0","null","<div style=""font-size:60px;"">+</div>","null","fixation","",""
"","","","","","image-keyboard-response","4","5911","0.0-3.0-1.0","344","img/blue.png","f","response","f","true"
"","","","","","html-keyboard-response","5","6419","0.0-3.0-0.1","null","<div style=""font-size:60px;"">+</div>","null","fixation","",""
"","","","","","image-keyboard-response","6","6776","0.0-3.0-1.1","356","img/orange.png","j","response","j","true"
"","","","","","html-keyboard-response","7","7534","0.0-3.0-0.2","null","<div style=""font-size:60px;"">+</div>","null","fixation","",""
"","","","","","image-keyboard-response","8","7863","0.0-3.0-1.2","328","img/orange.png","j","response","j","true"
"","","","","","html-keyboard-response","9","8373","0.0-3.0-0.3","null","<div style=""font-size:60px;"">+</div>","null","fixation","",""
"","","","","","image-keyboard-response","10","8763","0.0-3.0-1.3","388","img/blue.png","f","response","f","true"
"","","","","","html-keyboard-response","11","9525","0.0-3.0-0.4","null","<div style=""font-size:60px;"">+</div>","null","fixation","",""
"","","","","","image-keyboard-response","12","9863","0.0-3.0-1.4","336","img/orange.png","j","response","j","true"
"","","","","","html-keyboard-response","13","11370","0.0-3.0-0.5","null","<div style=""font-size:60px;"">+</div>","null","fixation","",""
"","","","","","image-keyboard-response","14","11725","0.0-3.0-1.5","354","img/blue.png","f","response","f","true"
"","","","","","html-keyboard-response","15","13729","0.0-3.0-0.6","null","<div style=""font-size:60px;"">+</div>","null","fixation","",""
"","","","","","image-keyboard-response","16","14153","0.0-3.0-1.6","423","img/blue.png","f","response","f","true"
"","","","","","html-keyboard-response","17","15414","0.0-3.0-0.7","null","<div style=""font-size:60px;"">+</div>","null","fixation","",""
"","","","","","image-keyboard-response","18","15704","0.0-3.0-1.7","289","img/orange.png","j","response","j","true"
"","","","","","html-keyboard-response","19","17458","0.0-3.0-0.8","null","<div style=""font-size:60px;"">+</div>","null","fixation","",""
"","","","","","image-keyboard-response","20","17737","0.0-3.0-1.8","278","img/orange.png","f","response","j","false"
"","","","","","html-keyboard-response","21","19244","0.0-3.0-0.9","null","<div style=""font-size:60px;"">+</div>","null","fixation","",""
"","","","","","image-keyboard-response","22","19515","0.0-3.0-1.9","270","img/blue.png","f","response","f","true"
"","","","","","html-keyboard-response","23","20713","0.0-4.0","1197","<p>You responded correctly on 90% of the trials.</p>
          <p>Your average response time was 343ms.</p>
          <p>Press any key to complete the experiment. Thank you!</p>","enter","","",""